Timestamp,Flex1,Flex2,Flex3,Flex4,Flex5,AccelX,AccelY,AccelZ,GyroX,GyroY,GyroZ,Hand_X_0,Hand_Y_0,Hand_X_1,Hand_Y_1,Hand_X_2,Hand_Y_2,Hand_X_3,Hand_Y_3,Hand_X_4,Hand_Y_4,Hand_X_5,Hand_Y_5,Hand_X_6,Hand_Y_6,Hand_X_7,Hand_Y_7,Hand_X_8,Hand_Y_8,Hand_X_9,Hand_Y_9,Hand_X_10,Hand_Y_10,Hand_X_11,Hand_Y_11,Hand_X_12,Hand_Y_12,Hand_X_13,Hand_Y_13,Hand_X_14,Hand_Y_14,Hand_X_15,Hand_Y_15,Hand_X_16,Hand_Y_16,Hand_X_17,Hand_Y_17,Hand_X_18,Hand_Y_18,Hand_X_19,Hand_Y_19,Hand_X_20,Hand_Y_20
1782215441.58,815,3593,4095,4095,3644,-2508,196,-16604,41,-13,-35,0.0,0.0,0.0,0.0,0.0,0.0,0.0,0.0,0.0,0.0,0.0,0.0,0.0,0.0,0.0,0.0,0.0,0.0,0.0,0.0,0.0,0.0,0.0,0.0,0.0,0.0,0.0,0.0,0.0,0.0,0.0,0.0,0.0,0.0,0.0,0.0,0.0,0.0,0.0,0.0,0.0,0.0
1782215441.663,839,2847,3175,3319,3318,-2508,160,-16496,25,-26,-6,0.0,0.0,0.0,0.0,0.0,0.0,0.0,0.0,0.0,0.0,0.0,0.0,0.0,0.0,0.0,0.0,0.0,0.0,0.0,0.0,0.0,0.0,0.0,0.0,0.0,0.0,0.0,0.0,0.0,0.0,0.0,0.0,0.0,0.0,0.0,0.0,0.0,0.0,0.0,0.0,0.0,0.0
1782215441.769,409,188,345,467,1421,-2476,140,-16496,25,-56,-53,0.0,0.0,0.0,0.0,0.0,0.0,0.0,0.0,0.0,0.0,0.0,0.0,0.0,0.0,0.0,0.0,0.0,0.0,0.0,0.0,0.0,0.0,0.0,0.0,0.0,0.0,0.0,0.0,0.0,0.0,0.0,0.0,0.0,0.0,0.0,0.0,0.0,0.0,0.0,0.0,0.0,0.0
1782215441.896,0,0,0,0,0,-2572,172,-16652,38,-32,-24,0.0,0.0,0.0,0.0,0.0,0.0,0.0,0.0,0.0,0.0,0.0,0.0,0.0,0.0,0.0,0.0,0.0,0.0,0.0,0.0,0.0,0.0,0.0,0.0,0.0,0.0,0.0,0.0,0.0,0.0,0.0,0.0,0.0,0.0,0.0,0.0,0.0,0.0,0.0,0.0,0.0,0.0
1782215441.978,34,0,0,0,0,-2552,136,-16540,69,-1,-26,0.0,0.0,0.0,0.0,0.0,0.0,0.0,0.0,0.0,0.0,0.0,0.0,0.0,0.0,0.0,0.0,0.0,0.0,0.0,0.0,0.0,0.0,0.0,0.0,0.0,0.0,0.0,0.0,0.0,0.0,0.0,0.0,0.0,0.0,0.0,0.0,0.0,0.0,0.0,0.0,0.0,0.0
1782215442.374,75,143,105,100,125,-2528,120,-16388,64,-1,-27,0.0,0.0,0.0,0.0,0.0,0.0,0.0,0.0,0.0,0.0,0.0,0.0,0.0,0.0,0.0,0.0,0.0,0.0,0.0,0.0,0.0,0.0,0.0,0.0,0.0,0.0,0.0,0.0,0.0,0.0,0.0,0.0,0.0,0.0,0.0,0.0,0.0,0.0,0.0,0.0,0.0,0.0
1782215442.871,171,703,685,548,524,-2488,224,-16552,50,-10,-34,0.0,0.0,0.0,0.0,0.0,0.0,0.0,0.0,0.0,0.0,0.0,0.0,0.0,0.0,0.0,0.0,0.0,0.0,0.0,0.0,0.0,0.0,0.0,0.0,0.0,0.0,0.0,0.0,0.0,0.0,0.0,0.0,0.0,0.0,0.0,0.0,0.0,0.0,0.0,0.0,0.0,0.0
1782215443.377,407,2663,2615,2303,1919,-2552,124,-16504,43,-42,-19,0.2515,0.979,0.318,0.8885,0.3615,0.7491,0.3953,0.6311,0.4222,0.5465,0.2823,0.6216,0.3017,0.4902,0.3155,0.4129,0.3276,0.346,0.2352,0.618,0.2345,0.4783,0.2411,0.3817,0.2494,0.3,0.1918,0.6396,0.1786,0.5101,0.1807,0.4258,0.1872,0.3496,0.15,0.6816,0.1273,0.5866,0.1173,0.5219,0.1152,0.4556
1782215443.885,845,3494,4095,4095,3763,-2496,116,-16588,58,-56,-30,0.1982,0.9579,0.2283,0.8247,0.2432,0.6912,0.259,0.6,0.2778,0.533,0.1982,0.5946,0.2307,0.4508,0.2552,0.3623,0.2782,0.2955,0.1906,0.6129,0.2206,0.4475,0.2513,0.3513,0.2828,0.2819,0.2002,0.6572,0.272,0.5264,0.3299,0.4861,0.3744,0.4655,0.2255,0.7224,0.3041,0.6555,0.3524,0.6453,0.3897,0.6448
1782215444.386,839,2706,3027,3139,3171,-2512,92,-16548,66,40,-27,0.1812,0.9411,0.1619,0.7832,0.1542,0.6208,0.1447,0.5005,0.118,0.4171,0.1554,0.5549,0.2053,0.3836,0.2559,0.3156,0.2985,0.2814,0.1737,0.6091,0.2696,0.4516,0.3344,0.4003,0.3796,0.3721,0.2036,0.6694,0.2989,0.5314,0.3559,0.4881,0.3927,0.4645,0.2388,0.7315,0.3128,0.6336,0.354,0.5946,0.385,0.5638
1782215444.879,332,0,0,13,1141,-2548,76,-16580,51,32,-45,0.2592,0.9755,0.3323,0.8863,0.3681,0.7727,0.3944,0.6729,0.3939,0.5823,0.2846,0.6775,0.2992,0.5721,0.3419,0.549,0.3756,0.5516,0.2607,0.6694,0.276,0.5375,0.3283,0.5312,0.3624,0.5686,0.2287,0.6689,0.2458,0.5322,0.2983,0.562,0.3247,0.6308,0.1929,0.6761,0.2261,0.5668,0.2699,0.5872,0.2963,0.646
1782215445.373,5,0,0,0,0,-2504,188,-16504,30,-29,-63,0.2695,0.9819,0.3274,0.8693,0.3516,0.7365,0.3595,0.6351,0.3685,0.5357,0.263,0.6294,0.283,0.5038,0.321,0.5779,0.3221,0.6548,0.2314,0.6429,0.2623,0.5183,0.306,0.6333,0.3024,0.7195,0.1973,0.6682,0.2422,0.5609,0.2831,0.6849,0.2764,0.769,0.1615,0.7117,0.2124,0.6171,0.2487,0.6937,0.2446,0.7631
1782215445.889,37,0,0,0,0,-2488,132,-16560,52,-15,-56,0.2596,1.0009,0.3198,0.8937,0.3589,0.7558,0.3872,0.6467,0.4104,0.5537,0.2741,0.6303,0.2926,0.5106,0.3396,0.5031,0.3784,0.5257,0.2403,0.6404,0.2665,0.509,0.3266,0.5264,0.3687,0.577,0.204,0.6647,0.239,0.5435,0.3038,0.5756,0.3451,0.6322,0.1671,0.7049,0.2114,0.6124,0.2632,0.6347,0.2983,0.6795
1782215446.372,82,178,139,117,151,-2524,120,-16584,38,-27,-72,0.1515,0.9964,0.1871,0.8358,0.2561,0.6676,0.3043,0.5507,0.3378,0.4456,0.2725,0.622,0.4143,0.6002,0.4181,0.6652,0.3889,0.7034,0.279,0.7274,0.431,0.7045,0.4143,0.7657,0.3729,0.7939,0.2871,0.8454,0.4344,0.8223,0.4078,0.8721,0.3645,0.889,0.295,0.9666,0.4169,0.9415,0.3944,0.965,0.3538,0.9713
1782215446.876,173,789,732,593,575,-2516,104,-16644,38,15,-55,0.1803,1.0022,0.2094,0.8488,0.2637,0.6634,0.2879,0.5235,0.299,0.4063,0.2978,0.682,0.4304,0.7211,0.4032,0.7459,0.3547,0.7456,0.2968,0.7988,0.4406,0.8262,0.402,0.8506,0.3466,0.8522,0.2999,0.9165,0.4343,0.9217,0.3969,0.9373,0.3456,0.9397,0.3046,1.0274,0.4129,1.0035,0.3843,1.013,0.3406,1.0185
1782215447.379,461,3097,3035,2697,2227,-2484,156,-16656,51,-29,-46,0.1887,0.9693,0.1865,0.8043,0.2073,0.6212,0.221,0.4877,0.2264,0.3867,0.2697,0.5977,0.3907,0.5808,0.3676,0.6257,0.3241,0.6526,0.3027,0.7089,0.4169,0.668,0.3884,0.7119,0.3461,0.7373,0.3332,0.8197,0.4396,0.7636,0.4102,0.8011,0.3675,0.8257,0.3586,0.9237,0.4449,0.8611,0.4184,0.8819,0.3785,0.9005
1782215447.888,874,3275,4061,4036,3788,-2496,180,-16552,38,-18,-32,0.1779,0.9638,0.1797,0.7948,0.2037,0.6079,0.2159,0.4684,0.2251,0.3594,0.2785,0.6158,0.4046,0.5822,0.3823,0.618,0.3421,0.6415,0.3063,0.7348,0.4282,0.6743,0.3961,0.7056,0.3525,0.732,0.3304,0.8479,0.4395,0.7786,0.4064,0.8037,0.3647,0.827,0.35,0.9514,0.4391,0.8763,0.4094,0.892,0.37,0.9123
1782215448.383,846,2567,2942,3051,3154,-2504,256,-16548,56,-44,-17,0.1483,0.9749,0.1605,0.8069,0.1994,0.6211,0.2166,0.4722,0.2222,0.3588,0.2624,0.6217,0.3951,0.5851,0.4658,0.5564,0.5229,0.5368,0.2847,0.7319,0.4249,0.6608,0.5053,0.62,0.5662,0.59,0.3027,0.8555,0.4212,0.8073,0.3759,0.8286,0.3225,0.8466,0.3162,0.9722,0.3898,0.9228,0.3494,0.9334,0.305,0.9468
1782215448.88,297,0,0,0,904,-2552,120,-16516,52,-38,-48,0.1571,0.9586,0.1706,0.7997,0.21,0.6208,0.2265,0.4786,0.2304,0.3687,0.2705,0.6249,0.4009,0.6009,0.4705,0.5803,0.5264,0.5669,0.2891,0.7325,0.4298,0.6754,0.5088,0.643,0.5678,0.6187,0.3041,0.8517,0.4227,0.8111,0.3819,0.8296,0.3317,0.8439,0.316,0.9645,0.3947,0.9155,0.3589,0.9248,0.3166,0.9364
1782215449.377,7,0,0,0,0,-2528,188,-16648,53,-44,-30,0.1638,0.9583,0.1828,0.796,0.2214,0.6185,0.2433,0.4894,0.2494,0.3871,0.2654,0.6123,0.3911,0.5816,0.462,0.5619,0.5131,0.5475,0.2859,0.7129,0.4202,0.6562,0.4968,0.6245,0.548,0.5954,0.3047,0.8214,0.4231,0.7716,0.4811,0.7475,0.5169,0.7202,0.3199,0.9249,0.3871,0.8748,0.3893,0.8634,0.3815,0.8541
1782215449.888,36,1,0,0,0,-2476,152,-16472,24,-13,-19,0.1674,0.9587,0.1821,0.8013,0.2239,0.621,0.2485,0.4871,0.256,0.3823,0.2637,0.6093,0.394,0.5757,0.463,0.5646,0.5114,0.5639,0.2783,0.7129,0.4158,0.6486,0.4786,0.6339,0.5151,0.6216,0.2953,0.8249,0.4279,0.7714,0.4099,0.7879,0.3706,0.7958,0.3128,0.9294,0.4068,0.8728,0.3867,0.8768,0.3505,0.8809
1782215450.386,88,181,137,127,154,-2556,180,-16548,32,-9,-28,0.161,0.9598,0.1811,0.7995,0.2346,0.6256,0.2716,0.4983,0.289,0.3907,0.2613,0.6144,0.3844,0.5655,0.4367,0.5744,0.4669,0.5942,0.2744,0.7225,0.4189,0.6725,0.4052,0.7063,0.3703,0.7314,0.289,0.8386,0.4141,0.7971,0.3825,0.828,0.3403,0.8449,0.3016,0.9472,0.3988,0.9015,0.3717,0.9188,0.3329,0.9316
1782215450.883,181,781,731,595,584,-2528,236,-16372,61,-15,-49,0.1593,0.9657,0.1786,0.8057,0.2314,0.6231,0.2671,0.4951,0.2839,0.3907,0.2681,0.6245,0.3931,0.585,0.4591,0.5829,0.5098,0.5851,0.2847,0.7318,0.4084,0.712,0.3791,0.7494,0.3362,0.7618,0.3014,0.842,0.4099,0.8035,0.3832,0.8441,0.3462,0.8603,0.3184,0.9454,0.419,0.8709,0.4726,0.8436,0.5156,0.8147
1782215451.379,458,2971,2932,2599,2155,-2444,148,-16536,6,-12,-23,0.1643,0.9624,0.1829,0.8057,0.2368,0.631,0.277,0.5088,0.2972,0.407,0.2804,0.6209,0.4036,0.5919,0.4681,0.588,0.5188,0.585,0.2983,0.7229,0.4143,0.7157,0.3838,0.7562,0.3423,0.7671,0.3142,0.8316,0.4167,0.8058,0.3906,0.8467,0.355,0.8591,0.3292,0.9372,0.4239,0.8704,0.4747,0.846,0.5166,0.8175
1782215451.888,867,3327,4095,4086,3757,-2484,120,-16544,60,-34,-25,0.1605,0.9576,0.1794,0.8031,0.2405,0.6462,0.2914,0.5318,0.317,0.4292,0.2742,0.623,0.3943,0.5921,0.4596,0.5743,0.5085,0.5615,0.2907,0.7191,0.4155,0.6716,0.4839,0.6515,0.533,0.6317,0.3062,0.8266,0.4063,0.7973,0.3755,0.8299,0.3357,0.8493,0.3189,0.9325,0.3991,0.8884,0.3728,0.9094,0.3381,0.9248
1782215452.391,832,2873,3022,3149,3309,-2484,180,-16500,26,-48,-48,0.198,0.8843,0.2047,0.7493,0.2579,0.6237,0.3128,0.5376,0.3374,0.4541,0.2588,0.5778,0.3681,0.5623,0.4302,0.5759,0.4766,0.5949,0.2645,0.6595,0.3884,0.6406,0.457,0.6521,0.5043,0.6681,0.2769,0.7563,0.3969,0.7335,0.4594,0.7423,0.4987,0.7553,0.293,0.8517,0.3875,0.8299,0.4397,0.8302,0.4779,0.8328
1782215452.879,339,0,0,12,986,-2584,128,-16484,50,-21,-50,0.2157,1.0173,0.3163,0.9265,0.3738,0.8391,0.4235,0.7825,0.4622,0.7383,0.2631,0.5953,0.377,0.6107,0.4445,0.6496,0.4935,0.6891,0.2413,0.6314,0.3736,0.6198,0.4443,0.6668,0.496,0.7119,0.2353,0.7065,0.3654,0.707,0.4423,0.7406,0.4982,0.7674,0.2451,0.8041,0.3535,0.8018,0.4158,0.8157,0.4641,0.8238
1782215453.375,1,0,0,0,0,-2504,140,-16548,41,-58,-41,0.2311,1.0276,0.3197,0.9544,0.3782,0.8575,0.4316,0.7975,0.4708,0.7499,0.2655,0.6129,0.3701,0.6042,0.4345,0.6275,0.4862,0.6568,0.2408,0.628,0.3645,0.5961,0.4351,0.6335,0.4896,0.6713,0.2351,0.6859,0.3561,0.6637,0.4312,0.6934,0.4863,0.7157,0.2462,0.7699,0.3519,0.7627,0.4147,0.7737,0.4632,0.7774
1782215453.887,36,0,0,0,0,-2528,168,-16544,32,-8,-55,0.2634,1.0292,0.3382,0.9755,0.4022,0.8963,0.4523,0.8389,0.4917,0.7753,0.354,0.6753,0.4119,0.6171,0.463,0.6363,0.5028,0.6759,0.3242,0.6596,0.4029,0.6033,0.4594,0.6371,0.5008,0.6858,0.2962,0.6687,0.3823,0.6306,0.4408,0.6717,0.4844,0.7229,0.2751,0.7059,0.3582,0.6935,0.411,0.7231,0.4532,0.7597
1782215454.383,76,139,104,91,117,-2552,152,-16568,40,-22,-62,0.2774,1.0317,0.3548,0.9814,0.4204,0.8987,0.471,0.8322,0.5123,0.7632,0.3902,0.7197,0.4366,0.6533,0.4842,0.664,0.5235,0.6917,0.362,0.6948,0.4244,0.6164,0.476,0.6371,0.5171,0.6784,0.3306,0.6854,0.4001,0.6186,0.457,0.6446,0.5037,0.6895,0.3,0.7021,0.3738,0.6834,0.4256,0.7053,0.4704,0.7358
1782215454.88,159,667,632,529,509,-2552,148,-16524,63,-38,-64,0.2808,1.0155,0.3607,0.9819,0.4303,0.9178,0.4838,0.8588,0.5151,0.7712,0.4051,0.747,0.4511,0.6385,0.4907,0.668,0.5133,0.7126,0.3821,0.7248,0.4371,0.6004,0.4839,0.6441,0.5079,0.7083,0.3532,0.7088,0.4093,0.6046,0.4625,0.6626,0.4917,0.7368,0.3232,0.7122,0.3879,0.6602,0.4362,0.6976,0.4674,0.7498
1782215455.375,367,2313,2284,2006,1699,-2596,160,-16440,54,-55,-39,0.292,1.0179,0.3759,0.9795,0.4391,0.9138,0.4943,0.8571,0.5314,0.7756,0.4032,0.7618,0.4526,0.6498,0.4944,0.6845,0.5134,0.7329,0.3853,0.7388,0.4433,0.6017,0.492,0.6551,0.5093,0.7278,0.3644,0.7198,0.4253,0.5921,0.4784,0.6657,0.4961,0.7527,0.346,0.7184,0.4149,0.6489,0.4616,0.6969,0.4811,0.7631
1782215455.887,838,3478,4095,4095,3799,-2476,156,-16536,73,-67,-30,0.2825,1.0156,0.3523,0.9308,0.3965,0.8314,0.4303,0.7514,0.4712,0.6845,0.3406,0.6981,0.3748,0.6461,0.4011,0.7038,0.4145,0.7735,0.3156,0.6871,0.3835,0.6425,0.397,0.7555,0.3884,0.8524,0.2887,0.682,0.3676,0.6593,0.3722,0.7834,0.3575,0.8745,0.2603,0.6914,0.3346,0.6878,0.3451,0.7844,0.3352,0.8598
1782215456.374,843,2835,3245,3359,3399,-2524,224,-16584,68,12,-45,0.0,0.0,0.0,0.0,0.0,0.0,0.0,0.0,0.0,0.0,0.0,0.0,0.0,0.0,0.0,0.0,0.0,0.0,0.0,0.0,0.0,0.0,0.0,0.0,0.0,0.0,0.0,0.0,0.0,0.0,0.0,0.0,0.0,0.0,0.0,0.0,0.0,0.0,0.0,0.0,0.0,0.0
1782215456.867,457,541,581,725,1677,-2504,104,-16500,47,-35,-57,0.0,0.0,0.0,0.0,0.0,0.0,0.0,0.0,0.0,0.0,0.0,0.0,0.0,0.0,0.0,0.0,0.0,0.0,0.0,0.0,0.0,0.0,0.0,0.0,0.0,0.0,0.0,0.0,0.0,0.0,0.0,0.0,0.0,0.0,0.0,0.0,0.0,0.0,0.0,0.0,0.0,0.0
1782215457.367,0,0,0,0,0,-2520,136,-16484,38,-13,-38,0.0,0.0,0.0,0.0,0.0,0.0,0.0,0.0,0.0,0.0,0.0,0.0,0.0,0.0,0.0,0.0,0.0,0.0,0.0,0.0,0.0,0.0,0.0,0.0,0.0,0.0,0.0,0.0,0.0,0.0,0.0,0.0,0.0,0.0,0.0,0.0,0.0,0.0,0.0,0.0,0.0,0.0
1782215457.877,29,0,0,0,0,-2548,104,-16472,46,-58,-13,0.0,0.0,0.0,0.0,0.0,0.0,0.0,0.0,0.0,0.0,0.0,0.0,0.0,0.0,0.0,0.0,0.0,0.0,0.0,0.0,0.0,0.0,0.0,0.0,0.0,0.0,0.0,0.0,0.0,0.0,0.0,0.0,0.0,0.0,0.0,0.0,0.0,0.0,0.0,0.0,0.0,0.0
1782215458.374,69,105,55,67,89,-2540,148,-16540,44,-26,-80,0.0,0.0,0.0,0.0,0.0,0.0,0.0,0.0,0.0,0.0,0.0,0.0,0.0,0.0,0.0,0.0,0.0,0.0,0.0,0.0,0.0,0.0,0.0,0.0,0.0,0.0,0.0,0.0,0.0,0.0,0.0,0.0,0.0,0.0,0.0,0.0,0.0,0.0,0.0,0.0,0.0,0.0
